Folder: GES-echem-suite/docs/utils (part 2)

File: cv_sample.DTA
EXPLAIN
TAG	CV
TITLE	LABEL	Cyclic Voltammetry	Test &Identifier
DATE	LABEL	7/3/2023	Date
TIME	LABEL	12:42:38	Time
NOTES	NOTES	1	&Notes...

PSTAT	PSTAT	IFC1010-29239	Potentiostat
VINIT	POTEN	-1,00000E-001	F	Initial &E (V)
VLIMIT1	POTEN	-8,00000E-001	F	Scan Limit &1 (V)
VLIMIT2	POTEN	-1,00000E-001	F	Scan Limit &2 (V)
VFINAL	POTEN	-1,00000E-001	F	Final &E (V)
SCANRATE	QUANT	2,00000E+000	&Scan Rate (mV/s)
STEPSIZE	QUANT	2,00000E+000	St&ep Size (mV)
CYCLES	IQUANT	3	C&ycles (#)
IMODE	SELECTOR	0	I/E Range &Mode
IRANGE	QUANT	1,00000E+003	&Max Current (mA)
AREA	QUANT	1,00000E+000	Electrode &Area (cm^2)
ELECTRODETYPE	SELECTOR	0	Electrode Type
STRIPPING	TOGGLE	F	Used for Stripping
POLARITY	TOGGLE	F	Signal Polarity
CONDIT	TWOPARAM	F	1,50000E+001	0,00000E+000	Conditionin&g	Time(s)	E(V)
DELAY	TWOPARAM	T	5,00000E+000	0,00000E+000	Init. De&lay	Time(s)	Stab.(mV/s)
EQDELAY	QUANT	0,00000E+000	Equil. &Time (s)
IRCOMP	SELECTOR	0	IRCom&p
PFCOR	QUANT	5,00000E+001	PF Corr. (ohm)
SAMPLINGMODE	SELECTOR	1	Sampling &Mode
OCVCURVE	TABLE	20
	Pt	T	Vf	Vm	Ach	Over	Temp
	#	s	V vs. Ref.	V	V	bits	deg C
	0	0,25	-4,49566E-001	-4,49566E-001	0,00000E+000	...........	1407,99
	1	0,5	-4,49566E-001	-4,49547E-001	0,00000E+000	...........	1407,99
	2	0,75	-4,49563E-001	-4,49501E-001	0,00000E+000	...........	1407,99
	3	1	-4,49554E-001	-4,49470E-001	0,00000E+000	...........	1407,99
	4	1,25	-4,49534E-001	-4,49434E-001	0,00000E+000	...........	1407,99
	5	1,5	-4,49506E-001	-4,49408E-001	0,00000E+000	...........	1407,99
	6	1,75	-4,49474E-001	-4,49373E-001	0,00000E+000	...........	1407,47
	7	2	-4,49441E-001	-4,49327E-001	0,00000E+000	...........	1407,47
	8	2,25	-4,49406E-001	-4,49294E-001	0,00000E+000	...........	1407,47
	9	2,5	-4,49371E-001	-4,49258E-001	0,00000E+000	...........	1407,47
	10	2,75	-4,49334E-001	-4,49232E-001	0,00000E+000	...........	1407,47
	11	3	-4,49298E-001	-4,49198E-001	0,00000E+000	...........	1407,47
	12	3,25	-4,49264E-001	-4,49153E-001	0,00000E+000	...........	1407,47
	13	3,5	-4,49231E-001	-4,49137E-001	0,00000E+000	...........	1407,47
	14	3,75	-4,49197E-001	-4,49096E-001	0,00000E+000	...........	1407,91
	15	4	-4,49165E-001	-4,49054E-001	0,00000E+000	...........	1407,91
	16	4,25	-4,49131E-001	-4,49026E-001	0,00000E+000	...........	1407,91
	17	4,5	-4,49097E-001	-4,49007E-001	0,00000E+000	...........	1407,91
	18	4,75	-4,49064E-001	-4,48965E-001	0,00000E+000	...........	1407,56
	19	5	-4,49032E-001	-4,48929E-001	0,00000E+000	...........	1407,56
EOC	QUANT	-0,4490322	Open Circuit (V)
PSTATMODEL	IQUANT	64	Pstat Model
PSTATSECTION	LABEL	IFC1010-29239	Pstat Section
PSTATSERIALNO	LABEL	29239	Pstat Serial Number
CTRLMODE	IQUANT	1	Control Mode
ELECTROMETER	IQUANT	0	RE=0 or CS=1
IESTAB	IQUANT	2	I/E Stability
CASPEED	IQUANT	4	Control Amp Speed
CONVENTION	IQUANT	1	Current Convention
ICHRANGE	IQUANT	2	Ich Range
ICHRANGEMODE	TOGGLE	F	Ich Auto Range
ICHOFFSETENABLE	TOGGLE	F	Ich Offset Enable
ICHOFFSET	QUANT	0	Ich Offset (V)
ICHFILTER	IQUANT	4	Ich Filter
VCHRANGE	IQUANT	2	Vch Range
VCHRANGEMODE	TOGGLE	F	Vch Auto Range
VCHOFFSETENABLE	TOGGLE	F	Vch Offset Enable
VCHOFFSET	QUANT	0	Vch Offset (V)
VCHFILTER	IQUANT	4	Vch Filter
IERANGELOWERLIMIT	IQUANT	4	I/E Range Lower Limit
IERANGEMODE	TOGGLE	T	I/E AutoRange
IERANGE	IQUANT	12	I/E Range
ACHSELECT	IQUANT	0	Ach Select
ACHRANGE	IQUANT	2	Ach Range
ACHOFFSETENABLE	TOGGLE	F	Ach Offset Enable
ACHOFFSET	QUANT	0	Ach Offset (V)
ACHFILTER	IQUANT	1	Ach Filter
SENSECABLEID	IQUANT	13	Sense Cable ID
PWRCABLEID	IQUANT	13	Power Cable ID
DCCALDATE	LABEL	2/14/2023	DC Calibration Date
ACCALDATE	LABEL	7/8/2021	AC Calibration Date
FRAMEWORKVERSION	LABEL	7.8.4	Framework Version
INSTRUMENTVERSION	LABEL	4.42	Instrument Version
CURVE1	TABLE
	Pt	T	Vf	Im	Vu	Sig	Ach	IERange	Over	Temp
	#	s	V vs. Ref.	A	V	V	V	#	bits	deg C
	0	1	-1,00084E-001	7,95492E-005	0,00000E+000	-9,99971E-002	0,00000E+000	12	...........	1407,99
	7	8	-1,14057E-001	2,15218E-005	0,00000E+000	-1,14001E-001	0,00000E+000	8	...........	1407,56
	14	15	-1,28074E-001	1,57081E-005	0,00000E+000	-1,28005E-001	0,00000E+000	8	...........	1407,47
	21	22	-1,42067E-001	1,28393E-005	0,00000E+000	-1,41996E-001	0,00000E+000	8	...........	1407,47
	28	29	-1,56080E-001	1,10505E-005	0,00000E+000	-1,56000E-001	0,00000E+000	8	...........	1407,47
	35	36	-1,70101E-001	9,78570E-006	0,00000E+000	-1,70003E-001	0,00000E+000	8	...........	1407,56
	42	43	-1,84085E-001	8,82852E-006	0,00000E+000	-1,83995E-001	0,00000E+000	8	...........	1407,56
	49	50	-1,98100E-001	8,06138E-006	0,00000E+000	-1,97998E-001	0,00000E+000	8	...........	1407,47
	56	57	-2,12111E-001	7,42219E-006	0,00000E+000	-2,12002E-001	0,00000E+000	7	...........	1407,56
	63	64	-2,26127E-001	6,88989E-006	0,00000E+000	-2,26006E-001	0,00000E+000	7	...........	1407,56
	70	71	-2,40117E-001	6,43058E-006	0,00000E+000	-2,39997E-001	0,00000E+000	7	...........	1407,56
	77	78	-2,54128E-001	6,02614E-006	0,00000E+000	-2,54001E-001	0,00000E+000	7	...........	1407,56
	84	85	-2,68133E-001	5,66122E-006	0,00000E+000	-2,68005E-001	0,00000E+000	7	...........	1407,56
	91	92	-2,82137E-001	5,32034E-006	0,00000E+000	-2,81996E-001	0,00000E+000	7	...........	1407,56
	98	99	-2,96156E-001	4,98777E-006	0,00000E+000	-2,96000E-001	0,00000E+000	7	...........	1407,56
	105	106	-3,10162E-001	4,65142E-006	0,00000E+000	-3,10003E-001	0,00000E+000	7	...........	1407,56
	112	113	-3,24158E-001	4,28362E-006	0,00000E+000	-3,23995E-001	0,00000E+000	7	...........	1407,56
	119	120	-3,38170E-001	3,84738E-006	0,00000E+000	-3,37998E-001	0,00000E+000	7	...........	1407,56
	126	127	-3,52175E-001	3,28924E-006	0,00000E+000	-3,52002E-001	0,00000E+000	7	...........	1407,56
	133	134	-3,66190E-001	2,50848E-006	0,00000E+000	-3,66006E-001	0,00000E+000	7	...........	1407,56
	140	141	-3,80181E-001	1,38551E-006	0,00000E+000	-3,79997E-001	0,00000E+000	7	...........	1407,56
	147	148	-3,94177E-001	-1,09314E-007	0,00000E+000	-3,94001E-001	0,00000E+000	5	....ih..i..	1407,47
	154	155	-4,08201E-001	-2,80305E-006	0,00000E+000	-4,08005E-001	0,00000E+000	7	...........	1407,56
	161	162	-4,22189E-001	-6,36950E-006	0,00000E+000	-4,21996E-001	0,00000E+000	7	...........	1407,56
	168	169	-4,36225E-001	-1,13207E-005	0,00000E+000	-4,36000E-001	0,00000E+000	8	...........	1407,47
	175	176	-4,50230E-001	-1,78046E-005	0,00000E+000	-4,50003E-001	0,00000E+000	8	...........	1407,56
	182	183	-4,64226E-001	-2,58321E-005	0,00000E+000	-4,63995E-001	0,00000E+000	8	...........	1407,47
	189	190	-4,78238E-001	-3,54041E-005	0,00000E+000	-4,77998E-001	0,00000E+000	8	...........	1407,56
	196	197	-4,92233E-001	-4,61502E-005	0,00000E+000	-4,92002E-001	0,00000E+000	8	...........	1407,47
	203	204	-5,06256E-001	-5,71244E-005	0,00000E+000	-5,06006E-001	0,00000E+000	8	...........	1407,56
	210	211	-5,20248E-001	-6,67451E-005	0,00000E+000	-5,19997E-001	0,00000E+000	8	...........	1407,56
	217	218	-5,34255E-001	-7,33889E-005	0,00000E+000	-5,34001E-001	0,00000E+000	8	...........	1407,56
	224	225	-5,48257E-001	-7,60876E-005	0,00000E+000	-5,48005E-001	0,00000E+000	8	...........	1407,56
	231	232	-5,62252E-001	-7,54525E-005	0,00000E+000	-5,61996E-001	0,00000E+000	8	...........	1407,56
	238	239	-5,76258E-001	-7,35274E-005	0,00000E+000	-5,76000E-001	0,00000E+000	8	...........	1407,56
	245	246	-5,90279E-001	-7,18899E-005	0,00000E+000	-5,90003E-001	0,00000E+000	8	...........	1407,56
[...]
	1841	1842	-6,18278E-001	-2,56725E-005	0,00000E+000	-6,17998E-001	0,00000E+000	8	...........	1407,56
	1849	1850	-6,02273E-001	-2,31596E-005	0,00000E+000	-6,01996E-001	0,00000E+000	8	...........	1407,56
	1857	1858	-5,86260E-001	-2,03742E-005	0,00000E+000	-5,86006E-001	0,00000E+000	8	...........	1407,56
	1865	1866	-5,70263E-001	-1,64770E-005	0,00000E+000	-5,70003E-001	0,00000E+000	8	...........	1407,56
	1873	1874	-5,54277E-001	-1,02737E-005	0,00000E+000	-5,54001E-001	0,00000E+000	8	...........	1407,56
	1881	1882	-5,38271E-001	-3,21979E-007	0,00000E+000	-5,37998E-001	0,00000E+000	7	...........	1407,56
	1889	1890	-5,22240E-001	1,33369E-005	0,00000E+000	-5,21996E-001	0,00000E+000	8	...........	1407,47
	1897	1898	-5,06257E-001	2,73617E-005	0,00000E+000	-5,06006E-001	0,00000E+000	8	...........	1407,56
	1905	1906	-4,90246E-001	3,78870E-005	0,00000E+000	-4,90003E-001	0,00000E+000	8	...........	1407,56
	1913	1914	-4,74259E-001	4,35080E-005	0,00000E+000	-4,74001E-001	0,00000E+000	8	...........	1407,56
	1921	1922	-4,58221E-001	4,52199E-005	0,00000E+000	-4,57998E-001	0,00000E+000	8	...........	1407,56
	1929	1930	-4,42229E-001	4,43806E-005	0,00000E+000	-4,41996E-001	0,00000E+000	8	...........	1407,56
	1937	1938	-4,26209E-001	4,20023E-005	0,00000E+000	-4,26006E-001	0,00000E+000	8	...........	1407,56
	1945	1946	-4,10216E-001	3,88986E-005	0,00000E+000	-4,10003E-001	0,00000E+000	8	...........	1407,56
	1953	1954	-3,94195E-001	3,57012E-005	0,00000E+000	-3,94001E-001	0,00000E+000	8	...........	1407,56
	1961	1962	-3,78177E-001	3,27473E-005	0,00000E+000	-3,77998E-001	0,00000E+000	8	...........	1407,56
	1969	1970	-3,62169E-001	3,01948E-005	0,00000E+000	-3,61996E-001	0,00000E+000	8	...........	1407,56
	1977	1978	-3,46178E-001	2,80854E-005	0,00000E+000	-3,46006E-001	0,00000E+000	8	...........	1407,56
	1985	1986	-3,30156E-001	2,64056E-005	0,00000E+000	-3,30003E-001	0,00000E+000	8	...........	1407,56
	1993	1994	-3,14168E-001	2,50242E-005	0,00000E+000	-3,14001E-001	0,00000E+000	8	...........	1407,56
	2001	2002	-2,98150E-001	2,39210E-005	0,00000E+000	-2,97998E-001	0,00000E+000	8	...........	1407,56
	2009	2010	-2,82133E-001	2,30421E-005	0,00000E+000	-2,81996E-001	0,00000E+000	8	...........	1407,56
	2017	2018	-2,66150E-001	2,22577E-005	0,00000E+000	-2,66006E-001	0,00000E+000	8	...........	1407,56
	2025	2026	-2,50134E-001	2,15739E-005	0,00000E+000	-2,50003E-001	0,00000E+000	8	...........	1407,56
	2033	2034	-2,34121E-001	2,10174E-005	0,00000E+000	-2,34001E-001	0,00000E+000	8	...........	1407,56
	2041	2042	-2,18117E-001	2,04784E-005	0,00000E+000	-2,17998E-001	0,00000E+000	8	...........	1407,56
	2049	2050	-2,02102E-001	1,99611E-005	0,00000E+000	-2,01996E-001	0,00000E+000	8	...........	1407,56
	2057	2058	-1,86112E-001	1,95548E-005	0,00000E+000	-1,86006E-001	0,00000E+000	8	...........	1407,56
	2065	2066	-1,70105E-001	1,90850E-005	0,00000E+000	-1,70003E-001	0,00000E+000	8	...........	1407,56
	2073	2074	-1,54100E-001	1,85797E-005	0,00000E+000	-1,54001E-001	0,00000E+000	8	...........	1407,56
	2081	2082	-1,38081E-001	1,81395E-005	0,00000E+000	-1,37998E-001	0,00000E+000	8	...........	1407,56
	2089	2090	-1,22059E-001	1,75887E-005	0,00000E+000	-1,21996E-001	0,00000E+000	8	...........	1407,56
	2097	2098	-1,06064E-001	1,74200E-005	0,00000E+000	-1,06006E-001	0,00000E+000	8	...........	1407,56
	2100	2101	-1,00046E-001	1,72608E-005	0,00000E+000	-9,99971E-002	0,00000E+000	8	...........	1407,56
CURVE4	TABLE
	Pt	T	Vf	Im	Vu	Sig	Ach	IERange	Over	Temp
	#	s	V vs. Ref.	A	V	V	V	#	bits	deg C
	2101	2102	-1,00051E-001	1,71987E-005	0,00000E+000	-9,99971E-002	0,00000E+000	8	...........	1407,56