Folder: GES-echem-suite/docs/utils

Note: README.md
# GES-echem-suite
Library containing different tools for electrochemical experimental data analysis.

File: cv_example_A.DTA
EXPLAIN
TAG	CV
TITLE	LABEL	Cyclic Voltammetry	Test &Identifier
DATE	LABEL	30/5/2023	Date
TIME	LABEL	9:49:02	Time
NOTES	NOTES	1	&Notes...

PSTAT	PSTAT	G03_1010-29239	Potentiostat
VINIT	POTEN	0,00000E+000	F	Initial &E (V)
VLIMIT1	POTEN	1,00000E+000	F	Scan Limit &1 (V)
VLIMIT2	POTEN	0,00000E+000	F	Scan Limit &2 (V)
VFINAL	POTEN	0,00000E+000	F	Final &E (V)
SCANRATE	QUANT	9,99998E+000	&Scan Rate (mV/s)
STEPSIZE	QUANT	2,00000E+000	St&ep Size (mV)
CYCLES	IQUANT	3	C&ycles (#)
IMODE	SELECTOR	0	I/E Range &Mode
IRANGE	QUANT	1,00000E+003	&Max Current (mA)
AREA	QUANT	1,00000E+000	Electrode &Area (cm^2)
ELECTRODETYPE	SELECTOR	0	Electrode Type
STRIPPING	TOGGLE	F	Used for Stripping
POLARITY	TOGGLE	F	Signal Polarity
CONDIT	TWOPARAM	F	1,50000E+001	0,00000E+000	Conditionin&g	Time(s)	E(V)
DELAY	TWOPARAM	T	5,00000E+000	0,00000E+000	Init. De&lay	Time(s)	Stab.(mV/s)
EQDELAY	QUANT	0,00000E+000	Equil. &Time (s)
IRCOMP	SELECTOR	0	IRCom&p
PFCOR	QUANT	5,00000E+001	PF Corr. (ohm)
SAMPLINGMODE	SELECTOR	1	Sampling &Mode
OCVCURVE	TABLE	20
	Pt	T	Vf	Vm	Ach	Over	Temp
	#	s	V vs. Ref.	V	V	bits	deg C
	0	0,25	2,20255E-001	2,20255E-001	0,00000E+000	...........	1406,77
	1	0,5	2,20260E-001	2,20489E-001	0,00000E+000	...........	1406,77
	2	0,75	2,20287E-001	2,20676E-001	0,00000E+000	...........	1406,77
	3	1	2,20361E-001	2,20915E-001	0,00000E+000	...........	1406,77
	4	1,25	2,20494E-001	2,21092E-001	0,00000E+000	...........	1406,15
	5	1,5	2,20673E-001	2,21319E-001	0,00000E+000	...........	1406,15
	6	1,75	2,20875E-001	2,21510E-001	0,00000E+000	...........	1406,15
	7	2	2,21084E-001	2,21726E-001	0,00000E+000	...........	1406,15
	8	2,25	2,21292E-001	2,21918E-001	0,00000E+000	...........	1406,07
	9	2,5	2,21498E-001	2,22091E-001	0,00000E+000	...........	1406,07
	10	2,75	2,21699E-001	2,22289E-001	0,00000E+000	...........	1406,07
	11	3	2,21894E-001	2,22497E-001	0,00000E+000	...........	1406,07
	12	3,25	2,22087E-001	2,22692E-001	0,00000E+000	...........	1406,07
	13	3,5	2,22281E-001	2,22907E-001	0,00000E+000	...........	1406,07
	14	3,75	2,22480E-001	2,23104E-001	0,00000E+000	...........	1406,07
	15	4	2,22682E-001	2,23337E-001	0,00000E+000	...........	1406,07
	16	4,25	2,22888E-001	2,23526E-001	0,00000E+000	...........	1406,15
	17	4,5	2,23097E-001	2,23741E-001	0,00000E+000	...........	1406,15
	18	4,75	2,23307E-001	2,23944E-001	0,00000E+000	...........	1406,15
	19	5	2,23516E-001	2,24184E-001	0,00000E+000	...........	1406,15
EOC	QUANT	0,2235157	Open Circuit (V)
PSTATMODEL	IQUANT	64	Pstat Model
PSTATSECTION	LABEL	IFC1010-29239	Pstat Section
PSTATSERIALNO	LABEL	29239	Pstat Serial Number
CTRLMODE	IQUANT	1	Control Mode
ELECTROMETER	IQUANT	0	RE=0 or CS=1
IESTAB	IQUANT	2	I/E Stability
CASPEED	IQUANT	4	Control Amp Speed
CONVENTION	IQUANT	1	Current Convention
ICHRANGE	IQUANT	2	Ich Range
ICHRANGEMODE	TOGGLE	F	Ich Auto Range
ICHOFFSETENABLE	TOGGLE	F	Ich Offset Enable
ICHOFFSET	QUANT	0	Ich Offset (V)
ICHFILTER	IQUANT	3	Ich Filter
VCHRANGE	IQUANT	2	Vch Range
VCHRANGEMODE	TOGGLE	F	Vch Auto Range
VCHOFFSETENABLE	TOGGLE	F	Vch Offset Enable
VCHOFFSET	QUANT	0	Vch Offset (V)
VCHFILTER	IQUANT	3	Vch Filter
IERANGELOWERLIMIT	IQUANT	4	I/E Range Lower Limit
IERANGEMODE	TOGGLE	T	I/E AutoRange
IERANGE	IQUANT	12	I/E Range
ACHSELECT	IQUANT	0	Ach Select
ACHRANGE	IQUANT	2	Ach Range
ACHOFFSETENABLE	TOGGLE	F	Ach Offset Enable
ACHOFFSET	QUANT	0	Ach Offset (V)
ACHFILTER	IQUANT	1	Ach Filter
SENSECABLEID	IQUANT	13	Sense Cable ID
PWRCABLEID	IQUANT	13	Power Cable ID
DCCALDATE	LABEL	2/14/2023	DC Calibration Date
ACCALDATE	LABEL	7/8/2021	AC Calibration Date
FRAMEWORKVERSION	LABEL	7.8.4	Framework Version
INSTRUMENTVERSION	LABEL	4.42	Instrument Version
CURVE1	TABLE
	Pt	T	Vf	Im	Vu	Sig	Ach	IERange	Over	Temp
	#	s	V vs. Ref.	A	V	V	V	#	bits	deg C
	0	0,2	6,36496E-005	-2,47246E-002	0,00000E+000	1,71065E-005	0,00000E+000	12	...........	1406,15
	10	2,2	2,00778E-002	-2,39086E-003	0,00000E+000	2,00061E-002	0,00000E+000	10	...........	1405,37
	20	4,2	4,00712E-002	-7,05270E-004	0,00000E+000	3,99951E-002	0,00000E+000	9	...........	1405,28
	30	6,2	6,00714E-002	-1,54977E-004	0,00000E+000	5,99842E-002	0,00000E+000	9	...........	1405,19
	40	8,2	8,01155E-002	1,64487E-004	0,00000E+000	8,00232E-002	0,00000E+000	9	...........	1405,10
	50	10,2	1,00083E-001	4,03098E-004	0,00000E+000	1,00012E-001	0,00000E+000	9	...........	1405,28
	60	12,2	1,20104E-001	5,64531E-004	0,00000E+000	1,20001E-001	0,00000E+000	9	...........	1405,37
	70	14,2	1,40092E-001	6,73555E-004	0,00000E+000	1,39990E-001	0,00000E+000	9	...........	1405,28
	80	16,2	1,60100E-001	7,46721E-004	0,00000E+000	1,59979E-001	0,00000E+000	9	...........	1404,84
	90	18,2	1,80156E-001	7,94488E-004	0,00000E+000	1,80018E-001	0,00000E+000	9	...........	1404,75
	100	20,2	2,00131E-001	8,24146E-004	0,00000E+000	2,00007E-001	0,00000E+000	9	...........	1404,84
	110	22,2	2,20137E-001	8,55119E-004	0,00000E+000	2,19996E-001	0,00000E+000	9	...........	1404,93
	120	24,2	2,40127E-001	8,96081E-004	0,00000E+000	2,39985E-001	0,00000E+000	10	...........	1404,84
	130	26,2	2,60201E-001	9,48624E-004	0,00000E+000	2,60024E-001	0,00000E+000	10	...........	1405,28
	140	28,2	2,80184E-001	9,84570E-004	0,00000E+000	2,80013E-001	0,00000E+000	10	...........	1405,28
	150	30,2	3,00173E-001	1,00564E-003	0,00000E+000	3,00002E-001	0,00000E+000	10	...........	1405,28
	160	32,2	3,20186E-001	1,01804E-003	0,00000E+000	3,19991E-001	0,00000E+000	10	...........	1405,19
	170	34,2	3,40177E-001	1,02614E-003	0,00000E+000	3,39980E-001	0,00000E+000	10	...........	1405,28
	180	36,2	3,60225E-001	1,06306E-003	0,00000E+000	3,60019E-001	0,00000E+000	10	...........	1405,28
	190	38,2	3,80214E-001	1,06914E-003	0,00000E+000	3,80008E-001	0,00000E+000	10	...........	1405,28
	200	40,2	4,00224E-001	1,09222E-003	0,00000E+000	3,99997E-001	0,00000E+000	10	...........	1405,28
	210	42,2	4,20230E-001	1,13010E-003	0,00000E+000	4,19986E-001	0,00000E+000	10	...........	1405,28
	220	44,2	4,40226E-001	1,17342E-003	0,00000E+000	4,39976E-001	0,00000E+000	10	...........	1405,28
	230	46,2	4,60255E-001	1,23073E-003	0,00000E+000	4,60015E-001	0,00000E+000	10	...........	1405,10
	240	48,2	4,80269E-001	1,37730E-003	0,00000E+000	4,80004E-001	0,00000E+000	10	...........	1405,28
	250	50,2	5,00271E-001	1,67477E-003	0,00000E+000	4,99993E-001	0,00000E+000	10	...........	1405,28
	260	52,2	5,20283E-001	2,18244E-003	0,00000E+000	5,19982E-001	0,00000E+000	10	...........	1405,19
	270	54,2	5,40326E-001	2,97720E-003	0,00000E+000	5,40021E-001	0,00000E+000	10	...........	1405,37
	280	56,2	5,60312E-001	4,14348E-003	0,00000E+000	5,60010E-001	0,00000E+000	10	...........	1405,28
	290	58,2	5,80315E-001	5,74167E-003	0,00000E+000	5,79999E-001	0,00000E+000	10	...........	1405,28
	300	60,2	6,00306E-001	7,75907E-003	0,00000E+000	5,99988E-001	0,00000E+000	10	...........	1405,10
	310	62,2	6,20315E-001	1,02377E-002	0,00000E+000	6,19977E-001	0,00000E+000	11	...........	1405,37
	320	64,2	6,40378E-001	1,30511E-002	0,00000E+000	6,40016E-001	0,00000E+000	11	...........	1405,28
	330	66,2	6,60353E-001	1,61755E-002	0,00000E+000	6,60005E-001	0,00000E+000	11	...........	1405,19
	340	68,2	6,80375E-001	1,94121E-002	0,00000E+000	6,79994E-001	0,00000E+000	11	...........	1405,28
	350	70,2	7,00378E-001	2,25900E-002	0,00000E+000	6,99983E-001	0,00000E+000	11	...........	1405,28
	360	72,2	7,20424E-001	2,55098E-002	0,00000E+000	7,20022E-001	0,00000E+000	11	...........	1405,28
[...]
	2671	534,4	6,58365E-001	-5,20035E-003	0,00000E+000	6,58006E-001	0,00000E+000	10	...........	1405,37
	2681	536,4	6,38366E-001	-6,93958E-003	0,00000E+000	6,38017E-001	0,00000E+000	10	...........	1405,54
	2691	538,4	6,18319E-001	-8,72214E-003	0,00000E+000	6,17978E-001	0,00000E+000	10	...........	1405,54
	2701	540,4	5,98325E-001	-1,04046E-002	0,00000E+000	5,97989E-001	0,00000E+000	11	...........	1405,45
	2711	542,4	5,78342E-001	-1,19899E-002	0,00000E+000	5,78000E-001	0,00000E+000	11	...........	1405,45
	2721	544,4	5,58343E-001	-1,35596E-002	0,00000E+000	5,58011E-001	0,00000E+000	11	...........	1405,54
	2731	546,4	5,38327E-001	-1,56476E-002	0,00000E+000	5,38022E-001	0,00000E+000	11	...........	1405,45
	2741	548,4	5,18296E-001	-1,86863E-002	0,00000E+000	5,17983E-001	0,00000E+000	11	...........	1405,45
	2751	550,4	4,98287E-001	-2,27018E-002	0,00000E+000	4,97994E-001	0,00000E+000	11	...........	1405,54
	2761	552,4	4,78291E-001	-2,74356E-002	0,00000E+000	4,78005E-001	0,00000E+000	11	...........	1405,45
	2771	554,4	4,58284E-001	-3,24552E-002	0,00000E+000	4,58016E-001	0,00000E+000	11	...........	1405,45
	2781	556,4	4,38245E-001	-3,75781E-002	0,00000E+000	4,37977E-001	0,00000E+000	11	...........	1405,54
	2791	558,4	4,18246E-001	-4,24440E-002	0,00000E+000	4,17988E-001	0,00000E+000	11	...........	1405,45
	2801	560,4	3,98247E-001	-4,68358E-002	0,00000E+000	3,97999E-001	0,00000E+000	11	...........	1405,45
	2811	562,4	3,78228E-001	-5,05040E-002	0,00000E+000	3,78010E-001	0,00000E+000	11	...........	1405,37
	2821	564,4	3,58250E-001	-5,31805E-002	0,00000E+000	3,58021E-001	0,00000E+000	11	...........	1405,45
	2831	566,4	3,38200E-001	-5,46937E-002	0,00000E+000	3,37982E-001	0,00000E+000	11	...........	1405,45
	2841	568,4	3,18184E-001	-5,49720E-002	0,00000E+000	3,17993E-001	0,00000E+000	11	...........	1405,45
	2851	570,4	2,98195E-001	-5,37872E-002	0,00000E+000	2,98003E-001	0,00000E+000	11	...........	1405,45
	2861	572,4	2,78200E-001	-5,08447E-002	0,00000E+000	2,78014E-001	0,00000E+000	11	...........	1405,54
	2871	574,4	2,58155E-001	-4,54441E-002	0,00000E+000	2,57975E-001	0,00000E+000	11	...........	1405,45
	2881	576,4	2,38158E-001	-3,69067E-002	0,00000E+000	2,37986E-001	0,00000E+000	11	...........	1405,37
	2891	578,4	2,18155E-001	-2,93805E-002	0,00000E+000	2,17997E-001	0,00000E+000	11	...........	1405,54
	2901	580,4	1,98161E-001	-2,47894E-002	0,00000E+000	1,98008E-001	0,00000E+000	11	...........	1405,45
	2911	582,4	1,78149E-001	-2,18893E-002	0,00000E+000	1,78019E-001	0,00000E+000	11	...........	1405,45
	2921	584,4	1,58112E-001	-1,99169E-002	0,00000E+000	1,57980E-001	0,00000E+000	11	...........	1405,45
	2931	586,4	1,38114E-001	-1,84575E-002	0,00000E+000	1,37991E-001	0,00000E+000	11	...........	1405,54
	2941	588,4	1,18117E-001	-1,72514E-002	0,00000E+000	1,18002E-001	0,00000E+000	11	...........	1405,45
	2951	590,4	9,81104E-002	-1,61952E-002	0,00000E+000	9,80133E-002	0,00000E+000	11	...........	1405,37
	2961	592,4	7,81358E-002	-1,51920E-002	0,00000E+000	7,80243E-002	0,00000E+000	11	...........	1405,54
	2971	594,4	5,80748E-002	-1,40465E-002	0,00000E+000	5,79853E-002	0,00000E+000	11	...........	1405,54
	2981	596,4	3,80862E-002	-1,22400E-002	0,00000E+000	3,79962E-002	0,00000E+000	11	...........	1405,37
	2991	598,4	1,80863E-002	-9,70686E-003	0,00000E+000	1,80072E-002	0,00000E+000	11	...........	1405,45
	3000	600,2	9,64615E-005	-8,07802E-003	0,00000E+000	1,71065E-005	0,00000E+000	11	...........	1405,45
CURVE4	TABLE
	Pt	T	Vf	Im	Vu	Sig	Ach	IERange	Over	Temp
	#	s	V vs. Ref.	A	V	V	V	#	bits	deg C
	3001	600,4	9,59113E-005	-7,62433E-003	0,00000E+000	1,71065E-005	0,00000E+000	10	...........	1405,45

File: cv_example_B.DTA
EXPLAIN
TAG	CV
TITLE	LABEL	Cyclic Voltammetry	Test &Identifier
DATE	LABEL	26/5/2023	Date
TIME	LABEL	16:28:53	Time
NOTES	NOTES	1	&Notes...

PSTAT	PSTAT	G03_1010-29239	Potentiostat
VINIT	POTEN	0,00000E+000	F	Initial &E (V)
VLIMIT1	POTEN	8,50000E-001	F	Scan Limit &1 (V)
VLIMIT2	POTEN	0,00000E+000	F	Scan Limit &2 (V)
VFINAL	POTEN	0,00000E+000	F	Final &E (V)
SCANRATE	QUANT	9,99998E+000	&Scan Rate (mV/s)
STEPSIZE	QUANT	2,00000E+000	St&ep Size (mV)
CYCLES	IQUANT	3	C&ycles (#)
IMODE	SELECTOR	0	I/E Range &Mode
IRANGE	QUANT	1,00000E+003	&Max Current (mA)
AREA	QUANT	1,00000E+000	Electrode &Area (cm^2)
ELECTRODETYPE	SELECTOR	0	Electrode Type
STRIPPING	TOGGLE	F	Used for Stripping
POLARITY	TOGGLE	F	Signal Polarity
CONDIT	TWOPARAM	F	1,50000E+001	0,00000E+000	Conditionin&g	Time(s)	E(V)
DELAY	TWOPARAM	T	5,00000E+000	0,00000E+000	Init. De&lay	Time(s)	Stab.(mV/s)
EQDELAY	QUANT	0,00000E+000	Equil. &Time (s)
IRCOMP	SELECTOR	0	IRCom&p
PFCOR	QUANT	5,00000E+001	PF Corr. (ohm)
SAMPLINGMODE	SELECTOR	1	Sampling &Mode
OCVCURVE	TABLE	20
	Pt	T	Vf	Vm	Ach	Over	Temp
	#	s	V vs. Ref.	V	V	bits	deg C
	0	0,25	2,07121E-002	2,07121E-002	0,00000E+000	...........	1406,42
	1	0,5	2,07123E-002	2,07230E-002	0,00000E+000	...........	1406,42
	2	0,75	2,07135E-002	2,07311E-002	0,00000E+000	...........	1406,42
	3	1	2,07171E-002	2,07503E-002	0,00000E+000	...........	1406,42
	4	1,25	2,07239E-002	2,07555E-002	0,00000E+000	...........	1406,24
	5	1,5	2,07339E-002	2,07826E-002	0,00000E+000	...........	1406,24
	6	1,75	2,07461E-002	2,07776E-002	0,00000E+000	...........	1406,24
	7	2	2,07592E-002	2,08022E-002	0,00000E+000	...........	1406,24
	8	2,25	2,07720E-002	2,08022E-002	0,00000E+000	...........	1406,07
	9	2,5	2,07841E-002	2,08259E-002	0,00000E+000	...........	1406,07
	10	2,75	2,07957E-002	2,08277E-002	0,00000E+000	...........	1406,07
	11	3	2,08076E-002	2,08572E-002	0,00000E+000	...........	1406,07
	12	3,25	2,08202E-002	2,08499E-002	0,00000E+000	...........	1405,80
	13	3,5	2,08334E-002	2,08874E-002	0,00000E+000	...........	1405,80
	14	3,75	2,08470E-002	2,08869E-002	0,00000E+000	...........	1405,80
	15	4	2,08614E-002	2,09164E-002	0,00000E+000	...........	1405,80
	16	4,25	2,08766E-002	2,09088E-002	0,00000E+000	...........	1406,24
	17	4,5	2,08914E-002	2,09395E-002	0,00000E+000	...........	1406,24
	18	4,75	2,09050E-002	2,09285E-002	0,00000E+000	...........	1406,24
	19	5	2,09171E-002	2,09628E-002	0,00000E+000	...........	1406,24
EOC	QUANT	0,0209171	Open Circuit (V)
PSTATMODEL	IQUANT	64	Pstat Model
PSTATSECTION	LABEL	IFC1010-29239	Pstat Section
PSTATSERIALNO	LABEL	29239	Pstat Serial Number
CTRLMODE	IQUANT	1	Control Mode
ELECTROMETER	IQUANT	0	RE=0 or CS=1
IESTAB	IQUANT	2	I/E Stability
CASPEED	IQUANT	4	Control Amp Speed
CONVENTION	IQUANT	1	Current Convention
ICHRANGE	IQUANT	2	Ich Range
ICHRANGEMODE	TOGGLE	F	Ich Auto Range
ICHOFFSETENABLE	TOGGLE	F	Ich Offset Enable
ICHOFFSET	QUANT	0	Ich Offset (V)
ICHFILTER	IQUANT	3	Ich Filter
VCHRANGE	IQUANT	2	Vch Range
VCHRANGEMODE	TOGGLE	F	Vch Auto Range
VCHOFFSETENABLE	TOGGLE	F	Vch Offset Enable
VCHOFFSET	QUANT	0	Vch Offset (V)
VCHFILTER	IQUANT	3	Vch Filter
IERANGELOWERLIMIT	IQUANT	4	I/E Range Lower Limit
IERANGEMODE	TOGGLE	T	I/E AutoRange
IERANGE	IQUANT	12	I/E Range
ACHSELECT	IQUANT	0	Ach Select
ACHRANGE	IQUANT	2	Ach Range
ACHOFFSETENABLE	TOGGLE	F	Ach Offset Enable
ACHOFFSET	QUANT	0	Ach Offset (V)
ACHFILTER	IQUANT	1	Ach Filter
SENSECABLEID	IQUANT	13	Sense Cable ID
PWRCABLEID	IQUANT	13	Power Cable ID
DCCALDATE	LABEL	2/14/2023	DC Calibration Date
ACCALDATE	LABEL	7/8/2021	AC Calibration Date
FRAMEWORKVERSION	LABEL	7.8.4	Framework Version
INSTRUMENTVERSION	LABEL	4.42	Instrument Version
CURVE1	TABLE
	Pt	T	Vf	Im	Vu	Sig	Ach	IERange	Over	Temp
	#	s	V vs. Ref.	A	V	V	V	#	bits	deg C
	0	0,2	4,19418E-005	-1,97083E-003	0,00000E+000	-2,04444E-005	0,00000E+000	12	...........	1405,80
	9	2	1,80621E-002	3,72563E-004	0,00000E+000	1,80196E-002	0,00000E+000	9	...........	1405,37
	18	3,8	3,60591E-002	7,38634E-004	0,00000E+000	3,60098E-002	0,00000E+000	9	...........	1405,37
	27	5,6	5,40684E-002	9,11115E-004	0,00000E+000	5,39999E-002	0,00000E+000	10	...........	1405,37
	36	7,4	7,20543E-002	9,95351E-004	0,00000E+000	7,19900E-002	0,00000E+000	10	...........	1405,28
	45	9,2	9,00697E-002	1,03797E-003	0,00000E+000	8,99802E-002	0,00000E+000	10	...........	1405,37
	54	11	1,08111E-001	1,06589E-003	0,00000E+000	1,08020E-001	0,00000E+000	10	...........	1405,37
	63	12,8	1,26108E-001	1,08241E-003	0,00000E+000	1,26010E-001	0,00000E+000	10	...........	1405,37
	72	14,6	1,44107E-001	1,08952E-003	0,00000E+000	1,44000E-001	0,00000E+000	10	...........	1405,37
	81	16,4	1,62101E-001	1,10384E-003	0,00000E+000	1,61991E-001	0,00000E+000	10	...........	1405,37
	90	18,2	1,80120E-001	1,10997E-003	0,00000E+000	1,79981E-001	0,00000E+000	10	...........	1405,37
	99	20	1,98149E-001	1,11718E-003	0,00000E+000	1,98021E-001	0,00000E+000	10	...........	1405,37
	108	21,8	2,16143E-001	1,12590E-003	0,00000E+000	2,16011E-001	0,00000E+000	10	...........	1405,37
	117	23,6	2,34137E-001	1,13652E-003	0,00000E+000	2,34001E-001	0,00000E+000	10	...........	1405,37
	126	25,4	2,52124E-001	1,14402E-003	0,00000E+000	2,51991E-001	0,00000E+000	10	...........	1405,37
	135	27,2	2,70127E-001	1,16027E-003	0,00000E+000	2,69981E-001	0,00000E+000	10	...........	1405,37
	144	29	2,88188E-001	1,18052E-003	0,00000E+000	2,88021E-001	0,00000E+000	10	...........	1405,37
	153	30,8	3,06177E-001	1,20341E-003	0,00000E+000	3,06012E-001	0,00000E+000	10	...........	1405,37
	162	32,6	3,24180E-001	1,22958E-003	0,00000E+000	3,24002E-001	0,00000E+000	10	...........	1405,37
	171	34,4	3,42175E-001	1,25701E-003	0,00000E+000	3,41992E-001	0,00000E+000	10	...........	1405,37
	180	36,2	3,60176E-001	1,28545E-003	0,00000E+000	3,59982E-001	0,00000E+000	10	...........	1405,37
	189	38	3,78225E-001	1,31591E-003	0,00000E+000	3,78022E-001	0,00000E+000	10	...........	1405,37
	198	39,8	3,96221E-001	1,34262E-003	0,00000E+000	3,96012E-001	0,00000E+000	10	...........	1405,37
	207	41,6	4,14232E-001	1,35788E-003	0,00000E+000	4,14002E-001	0,00000E+000	10	...........	1405,45
	216	43,4	4,32209E-001	1,35986E-003	0,00000E+000	4,31992E-001	0,00000E+000	10	...........	1405,37
	225	45,2	4,50220E-001	1,36390E-003	0,00000E+000	4,49982E-001	0,00000E+000	10	...........	1405,37
	234	47	4,68290E-001	1,39365E-003	0,00000E+000	4,68023E-001	0,00000E+000	10	...........	1405,37
	243	48,8	4,86270E-001	1,47313E-003	0,00000E+000	4,86013E-001	0,00000E+000	10	...........	1405,37
	252	50,6	5,04273E-001	1,63162E-003	0,00000E+000	5,04003E-001	0,00000E+000	10	...........	1405,37
	261	52,4	5,22276E-001	1,92193E-003	0,00000E+000	5,21993E-001	0,00000E+000	10	...........	1405,45
	270	54,2	5,40276E-001	2,39795E-003	0,00000E+000	5,39983E-001	0,00000E+000	10	...........	1405,37
	279	56	5,58319E-001	3,13264E-003	0,00000E+000	5,58023E-001	0,00000E+000	10	...........	1405,37
	288	57,8	5,76320E-001	4,16102E-003	0,00000E+000	5,76013E-001	0,00000E+000	10	...........	1405,37
	297	59,6	5,94324E-001	5,54383E-003	0,00000E+000	5,94003E-001	0,00000E+000	10	...........	1405,45
	306	61,4	6,12319E-001	7,29730E-003	0,00000E+000	6,11994E-001	0,00000E+000	10	...........	1405,45
	315	63,2	6,30330E-001	9,44555E-003	0,00000E+000	6,29984E-001	0,00000E+000	11	...........	1405,54
	324	65	6,48370E-001	1,19608E-002	0,00000E+000	6,48024E-001	0,00000E+000	11	...........	1405,45
[...]
	2259	452	5,82338E-001	-2,06872E-002	0,00000E+000	5,82010E-001	0,00000E+000	11	...........	1405,89
	2268	453,8	5,64345E-001	-2,03780E-002	0,00000E+000	5,64020E-001	0,00000E+000	11	...........	1405,89
	2277	455,6	5,46289E-001	-1,89202E-002	0,00000E+000	5,45980E-001	0,00000E+000	11	...........	1405,89
	2286	457,4	5,28289E-001	-1,70826E-002	0,00000E+000	5,27990E-001	0,00000E+000	11	...........	1405,89
	2295	459,2	5,10286E-001	-1,62760E-002	0,00000E+000	5,10000E-001	0,00000E+000	11	...........	1405,89
	2304	461	4,92293E-001	-1,70349E-002	0,00000E+000	4,92009E-001	0,00000E+000	11	...........	1405,89
	2313	462,8	4,74283E-001	-1,86452E-002	0,00000E+000	4,74019E-001	0,00000E+000	11	...........	1405,89
	2322	464,6	4,56232E-001	-2,02987E-002	0,00000E+000	4,55979E-001	0,00000E+000	11	...........	1405,89
	2331	466,4	4,38237E-001	-2,13672E-002	0,00000E+000	4,37989E-001	0,00000E+000	11	...........	1405,89
	2340	468,2	4,20235E-001	-2,14230E-002	0,00000E+000	4,19999E-001	0,00000E+000	11	...........	1405,89
	2349	470	4,02237E-001	-2,02604E-002	0,00000E+000	4,02009E-001	0,00000E+000	11	...........	1405,89
	2358	471,8	3,84242E-001	-1,81004E-002	0,00000E+000	3,84019E-001	0,00000E+000	11	...........	1405,89
	2367	473,6	3,66185E-001	-1,56336E-002	0,00000E+000	3,65979E-001	0,00000E+000	11	...........	1405,89
	2376	475,4	3,48183E-001	-1,35672E-002	0,00000E+000	3,47988E-001	0,00000E+000	11	...........	1405,89
	2385	477,2	3,30179E-001	-1,21238E-002	0,00000E+000	3,29998E-001	0,00000E+000	11	...........	1405,89
	2394	479	3,12190E-001	-1,11012E-002	0,00000E+000	3,12008E-001	0,00000E+000	11	...........	1405,89
	2403	480,8	2,94193E-001	-1,02547E-002	0,00000E+000	2,94018E-001	0,00000E+000	11	...........	1405,89
	2412	482,6	2,76126E-001	-9,49706E-003	0,00000E+000	2,75978E-001	0,00000E+000	11	...........	1405,89
	2421	484,4	2,58134E-001	-8,81152E-003	0,00000E+000	2,57988E-001	0,00000E+000	11	...........	1405,89
	2430	486,2	2,40146E-001	-8,19984E-003	0,00000E+000	2,39998E-001	0,00000E+000	11	...........	1405,89
	2439	488	2,22159E-001	-7,63765E-003	0,00000E+000	2,22008E-001	0,00000E+000	10	...........	1405,98
	2448	489,8	2,04136E-001	-7,07606E-003	0,00000E+000	2,04018E-001	0,00000E+000	10	...........	1405,98
	2457	491,6	1,86123E-001	-6,45499E-003	0,00000E+000	1,85977E-001	0,00000E+000	10	...........	1405,98
	2466	493,4	1,68111E-001	-5,67245E-003	0,00000E+000	1,67987E-001	0,00000E+000	10	...........	1405,89
	2475	495,2	1,50099E-001	-4,70620E-003	0,00000E+000	1,49997E-001	0,00000E+000	10	...........	1405,89
	2484	497	1,32123E-001	-3,76749E-003	0,00000E+000	1,32007E-001	0,00000E+000	10	...........	1405,89
	2493	498,8	1,14112E-001	-3,06631E-003	0,00000E+000	1,14017E-001	0,00000E+000	10	...........	1405,89
	2502	500,6	9,60552E-002	-2,60328E-003	0,00000E+000	9,59769E-002	0,00000E+000	10	...........	1405,89
	2511	502,4	7,80692E-002	-2,31265E-003	0,00000E+000	7,79867E-002	0,00000E+000	10	...........	1405,89
	2520	504,2	6,00689E-002	-2,14193E-003	0,00000E+000	5,99966E-002	0,00000E+000	10	...........	1405,89
	2529	506	4,20722E-002	-2,05368E-003	0,00000E+000	4,20065E-002	0,00000E+000	10	...........	1405,89
	2538	507,8	2,40614E-002	-2,00893E-003	0,00000E+000	2,40164E-002	0,00000E+000	10	...........	1405,89
	2547	509,6	6,03576E-003	-1,97980E-003	0,00000E+000	5,97626E-003	0,00000E+000	10	...........	1405,89
	2550	510,2	4,45427E-005	-1,96782E-003	0,00000E+000	-2,04444E-005	0,00000E+000	10	...........	1405,89
CURVE4	TABLE
	Pt	T	Vf	Im	Vu	Sig	Ach	IERange	Over	Temp
	#	s	V vs. Ref.	A	V	V	V	#	bits	deg C
	2551	510,4	4,80441E-005	-1,72499E-003	0,00000E+000	-2,04444E-005	0,00000E+000	10	...........	1405,89